#VisAO r-prime
#Effective wavelength =      0.62645846 microns
#Effective width =       0.11159971 microns
#note: no atmosphere included
#     lambda     trans     RSR       RSR+atm
     0.533000      0.00000      0.00000      0.00000
     0.533500  2.23437e-06  1.76706e-06  1.76706e-06
     0.534000  2.70028e-06  2.13753e-06  2.13753e-06
     0.534500  3.67644e-06  2.91297e-06  2.91297e-06
     0.535000  2.29823e-06  1.82267e-06  1.82267e-06
     0.535500  3.49527e-06  2.77461e-06  2.77461e-06
     0.536000  4.73673e-06  3.76361e-06  3.76361e-06
     0.536500  5.48197e-06  4.35981e-06  4.35981e-06
     0.537000  1.04746e-05  8.33820e-06  8.33820e-06
     0.537500  1.82492e-05  1.45407e-05  1.45407e-05
     0.538000  3.09726e-05  2.47014e-05  2.47014e-05
     0.538500  5.34464e-05  4.26644e-05  4.26644e-05
     0.539000  9.16042e-05  7.31924e-05  7.31924e-05
     0.539500  0.000156156  0.000124886  0.000124886
     0.540000  0.000258370  0.000206823  0.000206823
     0.540500  0.000421307  0.000337564  0.000337564
     0.541000  0.000679893  0.000545254  0.000545254
     0.541500   0.00105691  0.000848395  0.000848395
     0.542000   0.00163454   0.00131327   0.00131327
     0.542500   0.00248022   0.00199458   0.00199458
     0.543000   0.00364601   0.00293480   0.00293480
     0.543500   0.00527060   0.00424640   0.00424640
     0.544000   0.00748784   0.00603833   0.00603833
     0.544500    0.0104141   0.00840588   0.00840588
     0.545000    0.0142352    0.0115006    0.0115006
     0.545500    0.0191142    0.0154566    0.0154566
     0.546000    0.0251865    0.0203855    0.0203855
     0.546500    0.0325245    0.0263489    0.0263489
     0.547000    0.0413749    0.0335495    0.0335495
     0.547500    0.0517591    0.0420080    0.0420080
     0.548000    0.0635633    0.0516355    0.0516355
     0.548500    0.0772985    0.0628506    0.0628506
     0.549000    0.0927432    0.0754772    0.0754772
     0.549500     0.109407    0.0891197    0.0891197
     0.550000     0.127793     0.104191     0.104191
     0.550500     0.147529     0.120392     0.120392
     0.551000     0.168266     0.137439     0.137439
     0.551500     0.190231     0.155521     0.155521
     0.552000     0.213267     0.174512     0.174512
     0.552500     0.236896     0.194022     0.194022
     0.553000     0.260829     0.213817     0.213817
     0.553500     0.285333     0.234116     0.234116
     0.554000     0.309833     0.254448     0.254448
     0.554500     0.333649     0.274254     0.274254
     0.555000     0.357130     0.293819     0.293819
     0.555500     0.380878     0.313640     0.313640
     0.556000     0.403960     0.332947     0.332947
     0.556500     0.426754     0.352050     0.352050
     0.557000     0.449038     0.370766     0.370766
     0.557500     0.470272     0.388647     0.388647
     0.558000     0.491009     0.406149     0.406149
     0.558500     0.510951     0.423023     0.423023
     0.559000     0.530127     0.439292     0.439292
     0.559500     0.548331     0.454783     0.454783
     0.560000     0.565819     0.469707     0.469707
     0.560500     0.582205     0.483741     0.483741
     0.561000     0.597762     0.497110     0.497110
     0.561500     0.612757     0.510035     0.510035
     0.562000     0.626998     0.522353     0.522353
     0.562500     0.640197     0.533824     0.533824
     0.563000     0.652923     0.544919     0.544919
     0.563500     0.664906     0.555413     0.555413
     0.564000     0.676154     0.565309     0.565309
     0.564500     0.686916     0.574817     0.574817
     0.565000     0.697012     0.583781     0.583781
     0.565500     0.706570     0.592310     0.592310
     0.566000     0.715586     0.600399     0.600399
     0.566500     0.724258     0.608212     0.608212
     0.567000     0.732362     0.615560     0.615560
     0.567500     0.740033     0.622556     0.622556
     0.568000     0.747457     0.629356     0.629356
     0.568500     0.754350     0.635718     0.635718
     0.569000     0.761026     0.641909     0.641909
     0.569500     0.767366     0.647826     0.647826
     0.570000     0.773402     0.653494     0.653494
     0.570500     0.779388     0.659130     0.659130
     0.571000     0.785241     0.664662     0.664662
     0.571500     0.790948     0.670079     0.670079
     0.572000     0.796535     0.675402     0.675402
     0.572500     0.801512     0.680217     0.680217
     0.573000     0.806502     0.685049     0.685049
     0.573500     0.811282     0.689711     0.689711
     0.574000     0.815822     0.694175     0.694175
     0.574500     0.820360     0.698644     0.698644
     0.575000     0.824615     0.702879     0.702879
     0.575500     0.828769     0.707034     0.707034
     0.576000     0.832768     0.711063     0.711063
     0.576500     0.836421     0.714803     0.714803
     0.577000     0.837679     0.716498     0.716498
     0.577500     0.839765     0.718905     0.718905
     0.578000     0.843162     0.722437     0.722437
     0.578500     0.846533     0.725953     0.725953
     0.579000     0.849635     0.729243     0.729243
     0.579500     0.852609     0.732428     0.732428
     0.580000     0.855615     0.735644     0.735644
     0.580500     0.858435     0.738705     0.738705
     0.581000     0.860674     0.741270     0.741270
     0.581500     0.863103     0.744002     0.744002
     0.582000     0.865338     0.746569     0.746569
     0.582500     0.867560     0.749130     0.749130
     0.583000     0.869569     0.751509     0.751509
     0.583500     0.871649     0.753953     0.753953
     0.584000     0.873844     0.756499     0.756499
     0.584500     0.875111     0.758244     0.758244
     0.585000     0.876819     0.760374     0.760374
     0.585500     0.878266     0.762280     0.762280
     0.586000     0.877395     0.762174     0.762174
     0.586500     0.877315     0.762756     0.762756
     0.587000     0.878713     0.764622     0.764622
     0.587500     0.879975     0.766372     0.766372
     0.588000     0.881232     0.768120     0.768120
     0.588500     0.882353     0.769752     0.769752
     0.589000     0.883401     0.771321     0.771321
     0.589500     0.884652     0.773068     0.773068
     0.590000     0.885694     0.774635     0.774635
     0.590500     0.886832     0.776288     0.776288
     0.591000     0.887983     0.777954     0.777954
     0.591500     0.889137     0.779623     0.779623
     0.592000     0.890340     0.781339     0.781339
     0.592500     0.891446     0.782969     0.782969
     0.593000     0.892615     0.784658     0.784658
     0.593500     0.893725     0.786296     0.786296
     0.594000     0.894834     0.787935     0.787935
     0.594500     0.895979     0.789607     0.789607
     0.595000     0.897060     0.791225     0.791225
     0.595500     0.898213     0.792908     0.792908
     0.596000     0.899375     0.794601     0.794601
     0.596500     0.900431     0.796201     0.796201
     0.597000     0.901519     0.797830     0.797830
     0.597500     0.902685     0.799531     0.799531
     0.598000     0.903830     0.801216     0.801216
     0.598500     0.904948     0.802878     0.802878
     0.599000     0.906206     0.804665     0.804665
     0.599500     0.907385     0.806384     0.806384
     0.600000     0.908710     0.808235     0.808235
     0.600500     0.909902     0.809971     0.809971
     0.601000     0.911255     0.811850     0.811850
     0.601500     0.912571     0.813699     0.813699
     0.602000     0.913898     0.815560     0.815560
     0.602500     0.915328     0.817514     0.817514
     0.603000     0.916753     0.819467     0.819467
     0.603500     0.918194     0.821435     0.821435
     0.604000     0.919710     0.823473     0.823473
     0.604500     0.921138     0.825434     0.825434
     0.605000     0.922652     0.827475     0.827475
     0.605500     0.924138     0.829493     0.829493
     0.606000     0.925630     0.831518     0.831518
     0.606500     0.927175     0.833593     0.833593
     0.607000     0.928620     0.835581     0.835581
     0.607500     0.930138     0.837636     0.837636
     0.608000     0.931553     0.839601     0.839601
     0.608500     0.932979     0.841578     0.841578
     0.609000     0.934505     0.843647     0.843647
     0.609500     0.935829     0.845535     0.845535
     0.610000     0.937293     0.847553     0.847553
     0.610500     0.938487     0.849328     0.849328
     0.611000     0.939617     0.851047     0.851047
     0.611500     0.940811     0.852826     0.852826
     0.612000     0.942020     0.854620     0.854620
     0.612500     0.942875     0.856094     0.856094
     0.613000     0.941102     0.855182     0.855182
     0.613500     0.940640     0.855460     0.855460
     0.614000     0.941822     0.857233     0.857233
     0.614500     0.942957     0.858965     0.858965
     0.615000     0.944099     0.860705     0.860705
     0.615500     0.945200     0.862409     0.862409
     0.616000     0.946347     0.864157     0.864157
     0.616500     0.947675     0.866072     0.866072
     0.617000     0.948502     0.867531     0.867531
     0.617500     0.949534     0.869179     0.869179
     0.618000     0.950507     0.870774     0.870774
     0.618500     0.951459     0.872351     0.872351
     0.619000     0.952400     0.873919     0.873919
     0.619500     0.953345     0.875493     0.875493
     0.620000     0.954295     0.877073     0.877073
     0.620500     0.955498     0.878888     0.878888
     0.621000     0.954814     0.878966     0.878966
     0.621500     0.953794     0.878734     0.878734
     0.622000     0.954884     0.880446     0.880446
     0.622500     0.955966     0.882152     0.882152
     0.623000     0.956961     0.883780     0.883780
     0.623500     0.957932     0.885387     0.885387
     0.624000     0.958985     0.887070     0.887070
     0.624500     0.959955     0.888679     0.888679
     0.625000     0.960879     0.890247     0.890247
     0.625500     0.961847     0.891856     0.891856
     0.626000     0.962763     0.893419     0.893419
     0.626500     0.963595     0.894905     0.894905
     0.627000     0.964443     0.896408     0.896408
     0.627500     0.965245     0.897869     0.897869
     0.628000     0.966052     0.899336     0.899336
     0.628500     0.966839     0.900785     0.900785
     0.629000     0.967566     0.902179     0.902179
     0.629500     0.968251     0.903536     0.903536
     0.630000     0.968946     0.904902     0.904902
     0.630500     0.969230     0.905886     0.905886
     0.631000     0.969495     0.906852     0.906852
     0.631500     0.969702     0.907764     0.907764
     0.632000     0.969925     0.908692     0.908692
     0.632500     0.970062     0.909540     0.909540
     0.633000     0.970213     0.910400     0.910400
     0.633500     0.970325     0.911225     0.911225
     0.634000     0.970358     0.911975     0.911975
     0.634500     0.970451     0.912782     0.912782
     0.635000     0.970450     0.913499     0.913499
     0.635500     0.970455     0.914224     0.914224
     0.636000     0.970518     0.915002     0.915002
     0.636500     0.970453     0.915660     0.915660
     0.637000     0.970720     0.916632     0.916632
     0.637500     0.970364     0.917015     0.917015
     0.638000     0.970251     0.917628     0.917628
     0.638500     0.970159     0.918259     0.918259
     0.639000     0.968131     0.917058     0.917058
     0.639500     0.965778     0.915545     0.915545
     0.640000     0.965634     0.916124     0.916124
     0.640500     0.965551     0.916761     0.916761
     0.641000     0.965432     0.917363     0.917363
     0.641500     0.965351     0.918002     0.918002
     0.642000     0.965340     0.918706     0.918706
     0.642500     0.965197     0.919286     0.919286
     0.643000     0.965091     0.919900     0.919900
     0.643500     0.965004     0.920533     0.920533
     0.644000     0.964956     0.921202     0.921202
     0.644500     0.964942     0.921904     0.921904
     0.645000     0.964910     0.922589     0.922589
     0.645500     0.964948     0.923341     0.923341
     0.646000     0.964912     0.924021     0.924021
     0.646500     0.964993     0.924813     0.924813
     0.647000     0.965092     0.925624     0.925624
     0.647500     0.965314     0.926552     0.926552
     0.648000     0.965458     0.927406     0.927406
     0.648500     0.965742     0.928395     0.928395
     0.649000     0.965934     0.929295     0.929295
     0.649500     0.966275     0.930339     0.930339
     0.650000     0.966683     0.931449     0.931449
     0.650500     0.966892     0.932367     0.932367
     0.651000     0.967115     0.933299     0.933299
     0.651500     0.967433     0.934323     0.934323
     0.652000     0.967795     0.935390     0.935390
     0.652500     0.968247     0.936544     0.936544
     0.653000     0.968659     0.937660     0.937660
     0.653500     0.969128     0.938833     0.938833
     0.654000     0.969676     0.940083     0.940083
     0.654500     0.970271     0.941379     0.941379
     0.655000     0.970772     0.942584     0.942584
     0.655500     0.971236     0.943755     0.943755
     0.656000     0.970623     0.943879     0.943879
     0.656500     0.968174     0.942214     0.942214
     0.657000     0.968207     0.942964     0.942964
     0.657500     0.968855     0.944313     0.944313
     0.658000     0.969543     0.945703     0.945703
     0.658500     0.970122     0.946986     0.946986
     0.659000     0.970854     0.948421     0.948421
     0.659500     0.971608     0.949877     0.949877
     0.660000     0.972231     0.951206     0.951206
     0.660500     0.973029     0.952709     0.952709
     0.661000     0.973840     0.954225     0.954225
     0.661500     0.974611     0.955703     0.955703
     0.662000     0.975531     0.957328     0.957328
     0.662500     0.976311     0.958817     0.958817
     0.663000     0.977207     0.960421     0.960421
     0.663500     0.978046     0.961970     0.961970
     0.664000     0.979039     0.963673     0.963673
     0.664500     0.980099     0.965443     0.965443
     0.665000     0.981069     0.967125     0.967125
     0.665500     0.982193     0.968962     0.968962
     0.666000     0.983526     0.971005     0.971005
     0.666500     0.984344     0.972542     0.972542
     0.667000     0.985646     0.974560     0.974560
     0.667500     0.986879     0.976510     0.976510
     0.668000     0.988262     0.978611     0.978611
     0.668500     0.987413     0.978502     0.978502
     0.669000     0.987014     0.978838     0.978838
     0.669500     0.988529     0.981074     0.981074
     0.670000     0.990127     0.983393     0.983393
     0.670500     0.991582     0.985574     0.985574
     0.671000     0.993168     0.987886     0.987886
     0.671500     0.994697     0.990144     0.990144
     0.672000     0.996206     0.992385     0.992385
     0.672500     0.997555     0.994467     0.994467
     0.673000     0.998632     0.996281     0.996281
     0.673500     0.999463     0.997852     0.997852
     0.674000      1.00000     0.999129     0.999129
     0.674500     0.999993     0.999862     0.999862
     0.675000     0.999389      1.00000      1.00000
     0.675500     0.998059     0.999408     0.999408
     0.676000     0.995701     0.997786     0.997786
     0.676500     0.992266     0.995079     0.995079
     0.677000     0.987393     0.990924     0.990924
     0.677500     0.981015     0.985250     0.985250
     0.678000     0.972687     0.977607     0.977607
     0.678500     0.962062     0.967642     0.967642
     0.679000     0.947330     0.953526     0.953526
     0.679500     0.929316     0.936083     0.936083
     0.680000     0.911013     0.918322     0.918322
     0.680500     0.889141     0.896934     0.896934
     0.681000     0.864808     0.873028     0.873028
     0.681500     0.836978     0.845554     0.845554
     0.682000     0.805805     0.814659     0.814659
     0.682500     0.772370     0.781429     0.781429
     0.683000     0.736558     0.745743     0.745743
     0.683500     0.698644     0.707874     0.707874
     0.684000     0.659274     0.668472     0.668472
     0.684500     0.618991     0.628086     0.628086
     0.685000     0.577623     0.586539     0.586539
     0.685500     0.536335     0.545011     0.545011
     0.686000     0.496424     0.504822     0.504822
     0.686500     0.456934     0.465003     0.465003
     0.687000     0.418704     0.426409     0.426409
     0.687500     0.383088     0.390421     0.390421
     0.688000     0.348859     0.355795     0.355795
     0.688500     0.316339     0.322863     0.322863
     0.689000     0.286718     0.292844     0.292844
     0.689500     0.259051     0.264777     0.264777
     0.690000     0.233980     0.239326     0.239326
     0.690500     0.210454     0.215418     0.215418
     0.691000     0.189046     0.193645     0.193645
     0.691500     0.170021     0.174283     0.174283
     0.692000     0.152861     0.156807     0.156807
     0.692500     0.137650     0.141305     0.141305
     0.693000     0.123699     0.127075     0.127075
     0.693500     0.111187     0.114304     0.114304
     0.694000     0.100205     0.103089     0.103089
     0.694500    0.0901696    0.0928312    0.0928312
     0.695000    0.0810906    0.0835443    0.0835443
     0.695500    0.0731446    0.0754121    0.0754121
     0.696000    0.0659171    0.0680094    0.0680094
     0.696500    0.0595465    0.0614807    0.0614807
     0.697000    0.0538019    0.0555894    0.0555894
     0.697500    0.0486745    0.0503278    0.0503278
     0.698000    0.0440284    0.0455565    0.0455565
     0.698500    0.0398713    0.0412846    0.0412846
     0.699000    0.0362232    0.0375340    0.0375340
     0.699500    0.0328170    0.0340290    0.0340290
     0.700000    0.0297542    0.0308750    0.0308750
     0.700500    0.0271006    0.0281416    0.0281416
     0.701000    0.0246842    0.0256507    0.0256507
     0.701500    0.0224835    0.0233805    0.0233805
     0.702000    0.0205122    0.0213457    0.0213457
     0.702500    0.0187462    0.0195219    0.0195219
     0.703000    0.0171632    0.0178861    0.0178861
     0.703500    0.0157122    0.0163856    0.0163856
     0.704000    0.0144121    0.0150405    0.0150405
     0.704500    0.0132057    0.0137913    0.0137913
     0.705000    0.0121267    0.0126734    0.0126734
     0.705500    0.0111623    0.0116738    0.0116738
     0.706000    0.0102670    0.0107451    0.0107451
     0.706500   0.00945157   0.00989869   0.00989869
     0.707000   0.00872789   0.00914725   0.00914725
     0.707500   0.00804503   0.00843754   0.00843754
     0.708000   0.00740938   0.00777637   0.00777637
     0.708500   0.00684545   0.00718958   0.00718958
     0.709000   0.00633029   0.00665322   0.00665322
     0.709500   0.00586820   0.00617190   0.00617190
     0.710000   0.00544427   0.00573006   0.00573006
     0.710500   0.00504778   0.00531651   0.00531651
     0.711000   0.00468650   0.00493946   0.00493946
     0.711500   0.00435099   0.00458906   0.00458906
     0.712000   0.00405062   0.00427526   0.00427526
     0.712500   0.00377004   0.00398192   0.00398192
     0.713000   0.00350890   0.00370870   0.00370870
     0.713500   0.00327439   0.00346326   0.00346326
     0.714000   0.00305389   0.00323231   0.00323231
     0.714500   0.00284843   0.00301695   0.00301695
     0.715000   0.00266316   0.00282270   0.00282270
     0.715500   0.00248888   0.00263983   0.00263983
     0.716000   0.00232801   0.00247093   0.00247093
     0.716500   0.00217771   0.00231301   0.00231301
     0.717000   0.00203554   0.00216352   0.00216352
     0.717500   0.00190537   0.00202658   0.00202658
     0.718000   0.00178559   0.00190050   0.00190050
     0.718500   0.00167981   0.00178915   0.00178915
     0.719000   0.00157604   0.00167980   0.00167980
     0.719500   0.00148194   0.00158061   0.00158061
     0.720000   0.00139451   0.00148839   0.00148839
     0.720500   0.00131412   0.00140356   0.00140356
     0.721000   0.00123624   0.00132129   0.00132129
     0.721500   0.00116600   0.00124708   0.00124708
     0.722000   0.00109688   0.00117397   0.00117397
     0.722500   0.00103682   0.00111046   0.00111046
     0.723000  0.000981301   0.00105172   0.00105172
     0.723500  0.000927243  0.000994475  0.000994475
     0.724000  0.000875664  0.000939805  0.000939805
     0.724500  0.000828333  0.000889621  0.000889621
     0.725000  0.000783218  0.000841748  0.000841748
     0.725500  0.000741898  0.000797891  0.000797891
     0.726000  0.000700038  0.000753390  0.000753390
     0.726500  0.000664154  0.000715263  0.000715263
     0.727000  0.000630763  0.000679770  0.000679770
     0.727500  0.000596856  0.000643671  0.000643671
     0.728000  0.000569717  0.000614826  0.000614826
     0.728500  0.000540199  0.000583372  0.000583372
     0.729000  0.000512126  0.000553434  0.000553434
     0.729500  0.000486982  0.000526623  0.000526623
     0.730000  0.000464657  0.000502825  0.000502825
     0.730500  0.000441238  0.000477810  0.000477810
     0.731000  0.000420852  0.000456045  0.000456045
     0.731500  0.000401805  0.000435704  0.000435704
     0.732000  0.000382450  0.000415000  0.000415000
     0.732500  0.000365168  0.000396517  0.000396517
     0.733000  0.000348833  0.000379038  0.000379038
     0.733500  0.000333931  0.000363094  0.000363094
     0.734000  0.000317512  0.000345476  0.000345476
     0.734500  0.000302761  0.000329650  0.000329650
     0.735000  0.000290182  0.000316170  0.000316170
     0.735500  0.000276397  0.000301354  0.000301354
     0.736000  0.000265165  0.000289305  0.000289305
     0.736500  0.000254203  0.000277533  0.000277533
     0.737000  0.000242890  0.000265362  0.000265362
     0.737500  0.000233883  0.000255695  0.000255695
     0.738000  0.000225142  0.000246306  0.000246306
     0.738500  0.000215390  0.000235796  0.000235796
     0.739000  0.000207812  0.000227654  0.000227654
     0.739500  0.000197528  0.000216535  0.000216535
     0.740000  0.000190062  0.000208492  0.000208492
     0.740500  0.000181111  0.000198807  0.000198807
     0.741000  0.000176932  0.000194351  0.000194351
     0.741500  0.000169490  0.000186301  0.000186301
     0.742000  0.000162337  0.000178560  0.000178560
     0.742500  0.000155758  0.000171438  0.000171438
     0.743000  0.000150169  0.000165398  0.000165398
     0.743500  0.000144355  0.000159101  0.000159101
     0.744000  0.000139295  0.000153627  0.000153627
     0.744500  0.000134282  0.000148198  0.000148198
     0.745000  0.000130368  0.000143976  0.000143976
     0.745500  0.000124588  0.000137684  0.000137684
     0.746000  0.000120132  0.000132849  0.000132849
     0.746500  0.000115957  0.000128318  0.000128318
     0.747000  0.000111904  0.000123916  0.000123916
     0.747500  0.000109529  0.000121367  0.000121367
     0.748000  0.000107059  0.000118710  0.000118710
     0.748500  9.84108e-05  0.000109193  0.000109193
     0.749000  9.88424e-05  0.000109745  0.000109745
     0.749500  9.59550e-05  0.000106611  0.000106611
     0.750000  9.26362e-05  0.000102992  0.000102992
     0.750500  8.94314e-05  9.94952e-05  9.94952e-05
     0.751000  8.52593e-05  9.49169e-05  9.49169e-05
     0.751500  8.36236e-05  9.31579e-05  9.31579e-05
     0.752000  8.05074e-05  8.97460e-05  8.97460e-05
     0.752500  7.99184e-05  8.91487e-05  8.91487e-05
     0.753000  7.91339e-05  8.83322e-05  8.83322e-05
     0.753500  7.42009e-05  8.28808e-05  8.28808e-05
     0.754000  7.29605e-05  8.15494e-05  8.15494e-05
     0.754500  7.23707e-05  8.09438e-05  8.09438e-05
     0.755000  6.77053e-05  7.57759e-05  7.57759e-05
     0.755500  6.65927e-05  7.45801e-05  7.45801e-05
     0.756000  6.51689e-05  7.30338e-05  7.30338e-05
     0.756500  6.01983e-05  6.75079e-05  6.75079e-05
     0.757000  5.89557e-05  6.61582e-05  6.61582e-05
     0.757500  5.76529e-05  6.47389e-05  6.47389e-05
     0.758000  5.79395e-05  6.51037e-05  6.51037e-05
     0.758500  5.40191e-05  6.07385e-05  6.07385e-05
     0.759000  5.56112e-05  6.25699e-05  6.25699e-05
     0.759500  5.20069e-05  5.85532e-05  5.85532e-05
     0.760000  4.98936e-05  5.62108e-05  5.62108e-05
     0.760500  4.89016e-05  5.51295e-05  5.51295e-05
     0.761000  4.68026e-05  5.27978e-05  5.27978e-05
     0.761500  4.60797e-05  5.20165e-05  5.20165e-05
     0.762000  4.63192e-05  5.23212e-05  5.23212e-05
     0.762500  4.55798e-05  5.15197e-05  5.15197e-05
     0.763000  4.34643e-05  4.91608e-05  4.91608e-05
     0.763500  4.16154e-05  4.71005e-05  4.71005e-05
     0.764000  4.14775e-05  4.69750e-05  4.69750e-05
     0.764500  3.90916e-05  4.43019e-05  4.43019e-05
     0.765000  3.95395e-05  4.48388e-05  4.48388e-05
     0.765500  3.83172e-05  4.34811e-05  4.34811e-05
     0.766000  3.65166e-05  4.14649e-05  4.14649e-05
     0.766500  3.69137e-05  4.19432e-05  4.19432e-05
     0.767000  3.58648e-05  4.07780e-05  4.07780e-05
     0.767500  3.46013e-05  3.93670e-05  3.93670e-05
     0.768000  3.40487e-05  3.87635e-05  3.87635e-05
     0.768500  3.27106e-05  3.72643e-05  3.72643e-05
     0.769000  3.26265e-05  3.71927e-05  3.71927e-05
     0.769500  3.22822e-05  3.68241e-05  3.68241e-05
     0.770000  3.15362e-05  3.59966e-05  3.59966e-05
     0.770500  3.11469e-05  3.55753e-05  3.55753e-05
     0.771000  3.02181e-05  3.45369e-05  3.45369e-05
     0.771500  2.92266e-05  3.34253e-05  3.34253e-05
     0.772000  2.93560e-05  3.35951e-05  3.35951e-05
     0.772500  2.88696e-05  3.30598e-05  3.30598e-05
     0.773000  2.74626e-05  3.14689e-05  3.14689e-05
     0.773500  2.70158e-05  3.09770e-05  3.09770e-05
     0.774000  2.63569e-05  3.02411e-05  3.02411e-05
     0.774500  2.67546e-05  3.07172e-05  3.07172e-05
     0.775000  2.53544e-05  2.91284e-05  2.91284e-05
     0.775500  2.54195e-05  2.92220e-05  2.92220e-05
     0.776000  2.52855e-05  2.90867e-05  2.90867e-05
     0.776500  2.37980e-05  2.73933e-05  2.73933e-05
     0.777000  2.31786e-05  2.66975e-05  2.66975e-05
     0.777500  2.41203e-05  2.78000e-05  2.78000e-05
     0.778000  2.28950e-05  2.64047e-05  2.64047e-05
     0.778500  2.26795e-05  2.61730e-05  2.61730e-05
     0.779000  2.43515e-05  2.81206e-05  2.81206e-05
     0.779500  2.19414e-05  2.53538e-05  2.53538e-05
     0.780000  2.24873e-05  2.60012e-05  2.60012e-05
     0.780500  2.11567e-05  2.44783e-05  2.44783e-05
     0.781000  2.12745e-05  2.46304e-05  2.46304e-05
     0.781500  2.07315e-05  2.40171e-05  2.40171e-05
     0.782000  2.03530e-05  2.35937e-05  2.35937e-05
     0.782500  2.05187e-05  2.38010e-05  2.38010e-05
     0.783000  2.10905e-05  2.44799e-05  2.44799e-05
     0.783500  1.85420e-05  2.15356e-05  2.15356e-05
     0.784000  1.82278e-05  2.11842e-05  2.11842e-05
     0.784500  2.02194e-05  2.35138e-05  2.35138e-05
     0.785000  1.92361e-05  2.23846e-05  2.23846e-05
     0.785500  1.90009e-05  2.21250e-05  2.21250e-05
     0.786000  1.89533e-05  2.20835e-05  2.20835e-05
     0.786500  1.76308e-05  2.05557e-05  2.05557e-05
     0.787000  1.70909e-05  1.99388e-05  1.99388e-05
     0.787500  1.83429e-05  2.14132e-05  2.14132e-05
     0.788000  1.77915e-05  2.07827e-05  2.07827e-05
     0.788500  1.69790e-05  1.98461e-05  1.98461e-05
     0.789000  1.74089e-05  2.03615e-05  2.03615e-05
     0.789500  1.63528e-05  1.91384e-05  1.91384e-05
     0.790000      0.00000      0.00000      0.00000
