#VisAO i-prime
#Effective wavelength =      0.76691462 microns
#Effective width =       0.13151942 microns
#note: no atmosphere included
#     lambda     trans     RSR       RSR+atm
     0.670000      0.00000      0.00000      0.00000
     0.670500  4.78895e-06  4.28948e-06  4.28948e-06
     0.671000  8.01606e-06  7.18538e-06  7.18538e-06
     0.671500  1.08079e-05  9.69510e-06  9.69510e-06
     0.672000  1.56636e-05  1.40614e-05  1.40614e-05
     0.672500  2.16235e-05  1.94260e-05  1.94260e-05
     0.673000  3.30589e-05  2.97214e-05  2.97214e-05
     0.673500  4.58036e-05  4.12101e-05  4.12101e-05
     0.674000  6.76093e-05  6.08741e-05  6.08741e-05
     0.674500  9.73745e-05  8.77391e-05  8.77391e-05
     0.675000  0.000140278  0.000126491  0.000126491
     0.675500  0.000201109  0.000181478  0.000181478
     0.676000  0.000285028  0.000257396  0.000257396
     0.676500  0.000402734  0.000363959  0.000363959
     0.677000  0.000561492  0.000507807  0.000507807
     0.677500  0.000779622  0.000705601  0.000705601
     0.678000   0.00107449  0.000973195  0.000973195
     0.678500   0.00147155   0.00133380   0.00133380
     0.679000   0.00198874   0.00180391   0.00180391
     0.679500   0.00265179   0.00240710   0.00240710
     0.680000   0.00352777   0.00320462   0.00320462
     0.680500   0.00465341   0.00423025   0.00423025
     0.681000   0.00603799   0.00549295   0.00549295
     0.681500   0.00782165   0.00712082   0.00712082
     0.682000    0.0100530   0.00915895   0.00915895
     0.682500    0.0127548    0.0116290    0.0116290
     0.683000    0.0160220    0.0146186    0.0146186
     0.683500    0.0199530    0.0182185    0.0182185
     0.684000    0.0245932    0.0224718    0.0224718
     0.684500    0.0300496    0.0274775    0.0274775
     0.685000    0.0364599    0.0333635    0.0333635
     0.685500    0.0438680    0.0401718    0.0401718
     0.686000    0.0521128    0.0477567    0.0477567
     0.686500    0.0615675    0.0564622    0.0564622
     0.687000    0.0721978    0.0662593    0.0662593
     0.687500    0.0837658    0.0769317    0.0769317
     0.688000    0.0965834    0.0887682    0.0887682
     0.688500     0.110839     0.101945     0.101945
     0.689000     0.126011     0.115983     0.115983
     0.689500     0.142323     0.131092     0.131092
     0.690000     0.159665     0.147172     0.147172
     0.690500     0.177685     0.163900     0.163900
     0.691000     0.196525     0.181411     0.181411
     0.691500     0.216863     0.200329     0.200329
     0.692000     0.237982     0.219997     0.219997
     0.692500     0.259326     0.239901     0.239901
     0.693000     0.281736     0.260821     0.260821
     0.693500     0.304632     0.282220     0.282220
     0.694000     0.327394     0.303526     0.303526
     0.694500     0.350943     0.325593     0.325593
     0.695000     0.374685     0.347870     0.347870
     0.695500     0.398205     0.369973     0.369973
     0.696000     0.421894     0.392264     0.392264
     0.696500     0.445262     0.414289     0.414289
     0.697000     0.468466     0.436192     0.436192
     0.697500     0.491345     0.457822     0.457822
     0.698000     0.514109     0.479376     0.479376
     0.698500     0.536523     0.500635     0.500635
     0.699000     0.557852     0.520910     0.520910
     0.699500     0.577997     0.540106     0.540106
     0.700000     0.597394     0.558631     0.558631
     0.700500     0.616964     0.577343     0.577343
     0.701000     0.636266     0.595831     0.595831
     0.701500     0.654875     0.613695     0.613695
     0.702000     0.672918     0.631053     0.631053
     0.702500     0.690140     0.647664     0.647664
     0.703000     0.706574     0.663558     0.663558
     0.703500     0.722704     0.679189     0.679189
     0.704000     0.737811     0.693879     0.693879
     0.704500     0.752618     0.708307     0.708307
     0.705000     0.766749     0.722119     0.722119
     0.705500     0.780008     0.735127     0.735127
     0.706000     0.792742     0.747657     0.747657
     0.706500     0.804954     0.759712     0.759712
     0.707000     0.816393     0.771054     0.771054
     0.707500     0.826454     0.781109     0.781109
     0.708000     0.834522     0.789292     0.789292
     0.708500     0.843868     0.798695     0.798695
     0.709000     0.853291     0.808183     0.808183
     0.709500     0.862254     0.817248     0.817248
     0.710000     0.870806     0.825936     0.825936
     0.710500     0.878648     0.833960     0.833960
     0.711000     0.886274     0.841790     0.841790
     0.711500     0.893621     0.849365     0.849365
     0.712000     0.900353     0.856365     0.856365
     0.712500     0.907007     0.863300     0.863300
     0.713000     0.912908     0.869527     0.869527
     0.713500     0.918625     0.875586     0.875586
     0.714000     0.924098     0.881419     0.881419
     0.714500     0.929364     0.887063     0.887063
     0.715000     0.934452     0.892543     0.892543
     0.715500     0.938823     0.897345     0.897345
     0.716000     0.943239     0.902197     0.902197
     0.716500     0.946166     0.905627     0.905627
     0.717000     0.947241     0.907289     0.907289
     0.717500     0.950394     0.910944     0.910944
     0.718000     0.953810     0.914856     0.914856
     0.718500     0.957142     0.918691     0.918691
     0.719000     0.960193     0.922260     0.922260
     0.719500     0.963153     0.925747     0.925747
     0.720000     0.965764     0.928902     0.928902
     0.720500     0.968391     0.932075     0.932075
     0.721000     0.970830     0.935071     0.935071
     0.721500     0.973193     0.937997     0.937997
     0.722000     0.975399     0.940775     0.940775
     0.722500     0.977490     0.943444     0.943444
     0.723000     0.979476     0.946015     0.946015
     0.723500     0.981184     0.948321     0.948321
     0.724000     0.982946     0.950680     0.950680
     0.724500     0.984699     0.953034     0.953034
     0.725000     0.986212     0.955156     0.955156
     0.725500     0.986499     0.956093     0.956093
     0.726000     0.985417     0.955703     0.955703
     0.726500     0.986281     0.957199     0.957199
     0.727000     0.987464     0.959007     0.959007
     0.727500     0.988598     0.960769     0.960769
     0.728000     0.989639     0.962442     0.962442
     0.728500     0.990766     0.964199     0.964199
     0.729000     0.991685     0.965756     0.965756
     0.729500     0.992583     0.967294     0.967294
     0.730000     0.993386     0.968740     0.968740
     0.730500     0.994285     0.970280     0.970280
     0.731000     0.995072     0.971713     0.971713
     0.731500     0.995708     0.972999     0.972999
     0.732000     0.996401     0.974342     0.974342
     0.732500     0.997067     0.975659     0.975659
     0.733000     0.997742     0.976986     0.976986
     0.733500     0.997879     0.977787     0.977787
     0.734000     0.995596     0.976215     0.976215
     0.734500     0.994426     0.975731     0.975731
     0.735000     0.994986     0.976945     0.976945
     0.735500     0.995560     0.978175     0.978175
     0.736000     0.995924     0.979197     0.979197
     0.736500     0.996261     0.980194     0.980194
     0.737000     0.996795     0.981385     0.981385
     0.737500     0.997157     0.982407     0.982407
     0.738000     0.997597     0.983507     0.983507
     0.738500     0.997983     0.984554     0.984554
     0.739000     0.998444     0.985676     0.985676
     0.739500     0.998805     0.986700     0.986700
     0.740000     0.999183     0.987740     0.987740
     0.740500     0.999528     0.988749     0.988749
     0.741000     0.999723     0.989610     0.989610
     0.741500      1.00000     0.990552     0.990552
     0.742000     0.998179     0.989415     0.989415
     0.742500     0.995879     0.987801     0.987801
     0.743000     0.996113     0.988698     0.988698
     0.743500     0.996461     0.989709     0.989709
     0.744000     0.996780     0.990692     0.990692
     0.744500     0.997051     0.991627     0.991627
     0.745000     0.997316     0.992556     0.992556
     0.745500     0.997576     0.993482     0.993482
     0.746000     0.997878     0.994449     0.994449
     0.746500     0.998224     0.995460     0.995460
     0.747000     0.998407     0.996310     0.996310
     0.747500     0.998740     0.997309     0.997309
     0.748000     0.999028     0.998264     0.998264
     0.748500     0.999309     0.999212     0.999212
     0.749000     0.999429      1.00000      1.00000
     0.749500     0.997082     0.998318     0.998318
     0.750000     0.995552     0.997451     0.997451
     0.750500     0.994827     0.997389     0.997389
     0.751000     0.994187     0.997411     0.997411
     0.751500     0.993597     0.997483     0.997483
     0.752000     0.992881     0.997427     0.997427
     0.752500     0.992084     0.997289     0.997289
     0.753000     0.991445     0.997309     0.997309
     0.753500     0.990715     0.997236     0.997236
     0.754000     0.989931     0.997108     0.997108
     0.754500     0.989456     0.997291     0.997291
     0.755000     0.988604     0.997093     0.997093
     0.755500     0.987758     0.996899     0.996899
     0.756000     0.987045     0.996839     0.996839
     0.756500     0.986348     0.996794     0.996794
     0.757000     0.985568     0.996664     0.996664
     0.757500     0.984889     0.996635     0.996635
     0.758000     0.983967     0.996359     0.996359
     0.758500     0.980482     0.993485     0.993485
     0.759000     0.978044     0.991668     0.991668
     0.759500     0.977373     0.991641     0.991641
     0.760000     0.976520     0.991428     0.991428
     0.760500     0.975876     0.991425     0.991425
     0.761000     0.975235     0.991426     0.991426
     0.761500     0.974543     0.991373     0.991373
     0.762000     0.973873     0.991342     0.991342
     0.762500     0.973049     0.991153     0.991153
     0.763000     0.972424     0.991166     0.991166
     0.763500     0.971723     0.991100     0.991100
     0.764000     0.970951     0.990962     0.990962
     0.764500     0.970275     0.990920     0.990920
     0.765000     0.966730     0.987945     0.987945
     0.765500     0.963967     0.985765     0.985765
     0.766000     0.963160     0.985583     0.985583
     0.766500     0.962280     0.985326     0.985326
     0.767000     0.961409     0.985076     0.985076
     0.767500     0.960698     0.984989     0.984989
     0.768000     0.959866     0.984777     0.984777
     0.768500     0.958937     0.984464     0.984464
     0.769000     0.958045     0.984189     0.984189
     0.769500     0.957075     0.983831     0.983831
     0.770000     0.956160     0.983529     0.983529
     0.770500     0.955137     0.983115     0.983115
     0.771000     0.954122     0.982708     0.982708
     0.771500     0.952975     0.982163     0.982163
     0.772000     0.951941     0.981734     0.981734
     0.772500     0.950715     0.981104     0.981104
     0.773000     0.949669     0.980659     0.980659
     0.773500     0.948494     0.980079     0.980079
     0.774000     0.947371     0.979551     0.979551
     0.774500     0.946239     0.979013     0.979013
     0.775000     0.944833     0.978190     0.978190
     0.775500     0.943643     0.977588     0.977588
     0.776000     0.942129     0.976648     0.976648
     0.776500     0.938205     0.973207     0.973207
     0.777000     0.935621     0.971152     0.971152
     0.777500     0.934277     0.970381     0.970381
     0.778000     0.932895     0.969569     0.969569
     0.778500     0.931569     0.968813     0.968813
     0.779000     0.930318     0.968133     0.968133
     0.779500     0.929068     0.967453     0.967453
     0.780000     0.927618     0.966563     0.966563
     0.780500     0.926449     0.965964     0.965964
     0.781000     0.924979     0.965048     0.965048
     0.781500     0.923767     0.964401     0.964401
     0.782000     0.922426     0.963617     0.963617
     0.782500     0.921160     0.962910     0.962910
     0.783000     0.919813     0.962116     0.962116
     0.783500     0.918493     0.961349     0.961349
     0.784000     0.917205     0.960613     0.960613
     0.784500     0.916123     0.960093     0.960093
     0.785000     0.914903     0.959425     0.959425
     0.785500     0.913765     0.958841     0.958841
     0.786000     0.912638     0.958269     0.958269
     0.786500     0.911361     0.957537     0.957537
     0.787000     0.910420     0.957156     0.957156
     0.787500     0.909299     0.956584     0.956584
     0.788000     0.908318     0.956160     0.956160
     0.788500     0.907385     0.955783     0.955783
     0.789000     0.906399     0.955350     0.955350
     0.789500     0.905503     0.955010     0.955010
     0.790000     0.904544     0.954603     0.954603
     0.790500     0.903524     0.954130     0.954130
     0.791000     0.902375     0.953520     0.953520
     0.791500     0.901283     0.952968     0.952968
     0.792000     0.900251     0.952478     0.952478
     0.792500     0.899368     0.952145     0.952145
     0.793000     0.898394     0.951713     0.951713
     0.793500     0.897500     0.951366     0.951366
     0.794000     0.896527     0.950934     0.950934
     0.794500     0.895604     0.950553     0.950553
     0.795000     0.894826     0.950324     0.950324
     0.795500     0.893942     0.949983     0.949983
     0.796000     0.893068     0.949651     0.949651
     0.796500     0.892460     0.949600     0.949600
     0.797000     0.891606     0.949287     0.949287
     0.797500     0.890771     0.948992     0.948992
     0.798000     0.889976     0.948740     0.948740
     0.798500     0.889274     0.948586     0.948586
     0.799000     0.888657     0.948521     0.948521
     0.799500     0.887834     0.948236     0.948236
     0.800000     0.887186     0.948137     0.948137
     0.800500     0.885650     0.947087     0.947087
     0.801000     0.884180     0.946105     0.946105
     0.801500     0.882900     0.945325     0.945325
     0.802000     0.881421     0.944330     0.944330
     0.802500     0.879996     0.943392     0.943392
     0.803000     0.878401     0.942269     0.942269
     0.803500     0.876843     0.941183     0.941183
     0.804000     0.875516     0.940343     0.940343
     0.804500     0.873836     0.939122     0.939122
     0.805000     0.872194     0.937941     0.937941
     0.805500     0.870612     0.936821     0.936821
     0.806000     0.869133     0.935809     0.935809
     0.806500     0.867263     0.934375     0.934375
     0.807000     0.865600     0.933161     0.933161
     0.807500     0.864016     0.932031     0.932031
     0.808000     0.862756     0.931248     0.931248
     0.808500     0.863482     0.932609     0.932609
     0.809000     0.862319     0.931929     0.931929
     0.809500     0.860506     0.930544     0.930544
     0.810000     0.858653     0.929114     0.929114
     0.810500     0.857019     0.927918     0.927918
     0.811000     0.855487     0.926831     0.926831
     0.811500     0.853937     0.925722     0.925722
     0.812000     0.852409     0.924634     0.924634
     0.812500     0.850788     0.923445     0.923445
     0.813000     0.849098     0.922178     0.922178
     0.813500     0.847551     0.921063     0.921063
     0.814000     0.845686     0.919601     0.919601
     0.814500     0.844083     0.918422     0.918422
     0.815000     0.842349     0.917098     0.917098
     0.815500     0.840594     0.915749     0.915749
     0.816000     0.838958     0.914527     0.914527
     0.816500     0.837057     0.913014     0.913014
     0.817000     0.836148     0.912581     0.912581
     0.817500     0.836686     0.913727     0.913727
     0.818000     0.835662     0.913167     0.913167
     0.818500     0.833937     0.911839     0.911839
     0.819000     0.832160     0.910452     0.910452
     0.819500     0.830298     0.908969     0.908969
     0.820000     0.828479     0.907531     0.907531
     0.820500     0.826653     0.906083     0.906083
     0.821000     0.824711     0.904506     0.904506
     0.821500     0.822530     0.902662     0.902662
     0.822000     0.820971     0.901500     0.901500
     0.822500     0.818800     0.899663     0.899663
     0.823000     0.816759     0.897967     0.897967
     0.823500     0.814986     0.896561     0.896561
     0.824000     0.814874     0.896982     0.896982
     0.824500     0.813165     0.895644     0.895644
     0.825000     0.810303     0.893034     0.893034
     0.825500     0.807299     0.890261     0.890261
     0.826000     0.803856     0.887001     0.887001
     0.826500     0.799789     0.883048     0.883048
     0.827000     0.795186     0.878497     0.878497
     0.827500     0.789864     0.873146     0.873146
     0.828000     0.783553     0.866692     0.866692
     0.828500     0.776263     0.859147     0.859147
     0.829000     0.767252     0.849686     0.849686
     0.829500     0.757103     0.838953     0.838953
     0.830000     0.744720     0.825728     0.825728
     0.830500     0.730422     0.810363     0.810363
     0.831000     0.714881     0.793599     0.793599
     0.831500     0.697453     0.774717     0.774717
     0.832000     0.675807     0.751125     0.751125
     0.832500     0.651224     0.724237     0.724237
     0.833000     0.624296     0.694707     0.694707
     0.833500     0.594655     0.662120     0.662120
     0.834000     0.562809     0.627037     0.627037
     0.834500     0.529696     0.590499     0.590499
     0.835000     0.494112     0.551160     0.551160
     0.835500     0.457800     0.510962     0.510962
     0.836000     0.421717     0.470970     0.470970
     0.836500     0.385571     0.430860     0.430860
     0.837000     0.350283     0.391662     0.391662
     0.837500     0.316592     0.354202     0.354202
     0.838000     0.284324     0.318290     0.318290
     0.838500     0.254408     0.284970     0.284970
     0.839000     0.226728     0.254117     0.254117
     0.839500     0.201125     0.225555     0.225555
     0.840000     0.177374     0.199038     0.199038
     0.840500     0.155967     0.175121     0.175121
     0.841000     0.137247     0.154193     0.154193
     0.841500     0.120207     0.135129     0.135129
     0.842000     0.105045     0.118155     0.118155
     0.842500    0.0918996     0.103431     0.103431
     0.843000    0.0803085    0.0904389    0.0904389
     0.843500    0.0704058    0.0793341    0.0793341
     0.844000    0.0617021    0.0695678    0.0695678
     0.844500    0.0539890    0.0609076    0.0609076
     0.845000    0.0471290    0.0531999    0.0531999
     0.845500    0.0412561    0.0465980    0.0465980
     0.846000    0.0362051    0.0409172    0.0409172
     0.846500    0.0317073    0.0358552    0.0358552
     0.847000    0.0278256    0.0314844    0.0314844
     0.847500    0.0245037    0.0277419    0.0277419
     0.848000    0.0215407    0.0244018    0.0244018
     0.848500    0.0189773    0.0215105    0.0215105
     0.849000    0.0167423    0.0189884    0.0189884
     0.849500    0.0147879    0.0167817    0.0167817
     0.850000    0.0131112    0.0148877    0.0148877
     0.850500    0.0116479    0.0132339    0.0132339
     0.851000    0.0103427    0.0117578    0.0117578
     0.851500   0.00917818    0.0104402    0.0104402
     0.852000   0.00814759   0.00927332   0.00927332
     0.852500   0.00727903   0.00828961   0.00828961
     0.853000   0.00648230   0.00738659   0.00738659
     0.853500   0.00578847   0.00659984   0.00659984
     0.854000   0.00519254   0.00592385   0.00592385
     0.854500   0.00466765   0.00532815   0.00532815
     0.855000   0.00418129   0.00477576   0.00477576
     0.855500   0.00374262   0.00427722   0.00427722
     0.856000   0.00336799   0.00385133   0.00385133
     0.856500   0.00302364   0.00345959   0.00345959
     0.857000   0.00272873   0.00312397   0.00312397
     0.857500   0.00247486   0.00283499   0.00283499
     0.858000   0.00223815   0.00256533   0.00256533
     0.858500   0.00202133   0.00231816   0.00231816
     0.859000   0.00181913   0.00208749   0.00208749
     0.859500   0.00164600   0.00188991   0.00188991
     0.860000   0.00149234   0.00171448   0.00171448
     0.860500   0.00134510   0.00154622   0.00154622
     0.861000   0.00123615   0.00142181   0.00142181
     0.861500   0.00111473   0.00128289   0.00128289
     0.862000   0.00101939   0.00117385   0.00117385
     0.862500  0.000932013   0.00107386   0.00107386
     0.863000  0.000853000  0.000983390  0.000983390
     0.863500  0.000774154  0.000893009  0.000893009
     0.864000  0.000710698  0.000820286  0.000820286
     0.864500  0.000648037  0.000748395  0.000748395
     0.865000  0.000591827  0.000683875  0.000683875
     0.865500  0.000546975  0.000632413  0.000632413
     0.866000  0.000498950  0.000577220  0.000577220
     0.866500  0.000462165  0.000534972  0.000534972
     0.867000  0.000419873  0.000486299  0.000486299
     0.867500  0.000389127  0.000450948  0.000450948
     0.868000  0.000355897  0.000412677  0.000412677
     0.868500  0.000326390  0.000378681  0.000378681
     0.869000  0.000302610  0.000351293  0.000351293
     0.869500  0.000280157  0.000325415  0.000325415
     0.870000  0.000258643  0.000300598  0.000300598
     0.870500  0.000240717  0.000279925  0.000279925
     0.871000  0.000222513  0.000258904  0.000258904
     0.871500  0.000206436  0.000240336  0.000240336
     0.872000  0.000186874  0.000217686  0.000217686
     0.872500  0.000175119  0.000204111  0.000204111
     0.873000  0.000160577  0.000187268  0.000187268
     0.873500  0.000151063  0.000176274  0.000176274
     0.874000  0.000137544  0.000160590  0.000160590
     0.874500  0.000129810  0.000151647  0.000151647
     0.875000  0.000122650  0.000143365  0.000143365
     0.875500  0.000111445  0.000130342  0.000130342
     0.876000  0.000100654  0.000117788  0.000117788
     0.876500  9.68699e-05  0.000113425  0.000113425
     0.877000  9.13814e-05  0.000107059  0.000107059
     0.877500  8.43762e-05  9.89085e-05  9.89085e-05
     0.878000  8.16667e-05  9.57868e-05  9.57868e-05
     0.878500  7.00862e-05  8.22508e-05  8.22508e-05
     0.879000  6.64858e-05  7.80700e-05  7.80700e-05
     0.879500  6.62210e-05  7.78033e-05  7.78033e-05
     0.880000  5.95948e-05  7.00579e-05  7.00579e-05
     0.880500  5.77115e-05  6.78825e-05  6.78825e-05
     0.881000  5.29907e-05  6.23651e-05  6.23651e-05
     0.881500  5.15763e-05  6.07350e-05  6.07350e-05
     0.882000  4.44638e-05  5.23891e-05  5.23891e-05
     0.882500  4.37090e-05  5.15290e-05  5.15290e-05
     0.883000  4.11091e-05  4.84914e-05  4.84914e-05
     0.883500  3.95742e-05  4.67073e-05  4.67073e-05
     0.884000  3.91419e-05  4.62233e-05  4.62233e-05
     0.884500  3.26928e-05  3.86292e-05  3.86292e-05
     0.885000  3.25400e-05  3.84705e-05  3.84705e-05
     0.885500  2.95696e-05  3.49784e-05  3.49784e-05
     0.886000  3.03515e-05  3.59236e-05  3.59236e-05
     0.886500  2.68519e-05  3.17995e-05  3.17995e-05
     0.887000  2.64658e-05  3.13600e-05  3.13600e-05
     0.887500  2.52282e-05  2.99103e-05  2.99103e-05
     0.888000  2.15049e-05  2.55104e-05  2.55104e-05
     0.888500  2.07580e-05  2.46383e-05  2.46383e-05
     0.889000  2.17698e-05  2.58537e-05  2.58537e-05
     0.889500  1.88404e-05  2.23874e-05  2.23874e-05
     0.890000  2.23451e-05  2.65668e-05  2.65668e-05
     0.890500  1.67152e-05  1.98844e-05  1.98844e-05
     0.891000  1.57222e-05  1.87136e-05  1.87136e-05
     0.891500  1.92147e-05  2.28834e-05  2.28834e-05
     0.892000  1.57478e-05  1.87651e-05  1.87651e-05
     0.892500  1.58138e-05  1.88543e-05  1.88543e-05
     0.893000  1.77707e-05  2.11994e-05  2.11994e-05
     0.893500  1.46022e-05  1.74293e-05  1.74293e-05
     0.894000  1.41448e-05  1.68928e-05  1.68928e-05
     0.894500  1.20997e-05  1.44584e-05  1.44584e-05
     0.895000  1.16724e-05  1.39557e-05  1.39557e-05
     0.895500  1.29090e-05  1.54427e-05  1.54427e-05
     0.896000  1.12455e-05  1.34603e-05  1.34603e-05
     0.896500  1.13799e-05  1.36287e-05  1.36287e-05
     0.897000  1.10717e-05  1.32670e-05  1.32670e-05
     0.897500  1.21359e-05  1.45503e-05  1.45503e-05
     0.898000  9.73746e-06  1.16812e-05  1.16812e-05
     0.898500  9.95871e-06  1.19533e-05  1.19533e-05
     0.899000  9.64563e-06  1.15839e-05  1.15839e-05
     0.899500  6.52067e-06  7.83537e-06  7.83537e-06
     0.900000      0.00000      0.00000      0.00000
